ENLIGHTEN Version,1.6.8
Measurement ID,20190304-193649-405000-unknown
Serial Number,unknown
Label,2019-03-04 19:43:25 Caffeine 1x500ms Spectrum
Integration Time,200
Timestamp,2019-03-04 19:36:49.405000
Note,
Temperature,-99
CCD C0,535.4879760742188
CCD C1,0.12055999785661697
CCD C2,-1.2115999652451137e-06
CCD C3,-8.375500293311688e-09
CCD Offset,0
CCD Gain,1.9
Laser Wavelength,532.0
Laser Enable,False
Laser Power,100.0
Laser Temperature,-99
Pixel Count,1024

Wavenumber,Processed
122.44,5756.00
126.64,5771.00
130.84,5813.00
135.04,5802.00
139.24,5820.00
143.43,5836.00
147.63,5843.00
151.82,5851.00
156.01,5889.00
160.20,5891.00
164.38,5986.00
168.57,5963.00
172.75,5999.00
176.93,6012.00
181.10,6020.00
185.28,6003.00
189.45,6018.00
193.63,6034.00
197.80,6092.00
201.96,6168.00
206.13,6138.00
210.29,6137.00
214.45,6165.00
218.61,6179.00
222.77,6178.00
226.93,6183.00
231.08,6263.00
235.23,6272.00
239.38,6255.00
243.53,6317.00
247.68,6293.00
251.82,6361.00
255.96,6346.00
260.10,6354.00
264.24,6380.00
268.38,6411.00
272.51,6409.00
276.64,6436.00
280.77,6464.00
284.90,6424.00
289.03,6460.00
293.15,6483.00
297.27,6506.00
301.39,6536.00
305.51,6527.00
309.63,6535.00
313.74,6586.00
317.85,6576.00
321.96,6616.00
326.07,6646.00
330.18,6616.00
334.28,6678.00
338.38,6694.00
342.48,6762.00
346.58,6791.00
350.68,6778.00
354.77,6787.00
358.86,6808.00
362.95,6838.00
367.04,6866.00
371.13,6897.00
375.21,6914.00
379.30,7007.00
383.38,6982.00
387.45,7015.00
391.53,7024.00
395.60,7093.00
399.68,7036.00
403.75,7138.00
407.81,7132.00
411.88,7168.00
415.94,7191.00
420.01,7228.00
424.07,7280.00
428.13,7295.00
432.18,7337.00
436.24,7385.00
440.29,7404.00
444.34,7413.00
448.39,7467.00
452.43,7459.00
456.48,7524.00
460.52,7527.00
464.56,7612.00
468.60,7616.00
472.63,7623.00
476.67,7719.00
480.70,7713.00
484.73,7702.00
488.76,7745.00
492.78,7741.00
496.81,7808.00
500.83,7841.00
504.85,7869.00
508.87,7981.00
512.89,7994.00
516.90,8070.00
520.91,8034.00
524.92,8116.00
528.93,8120.00
532.94,8226.00
536.94,8233.00
540.94,8298.00
544.94,8379.00
548.94,8477.00
552.94,8550.00
556.93,8655.00
560.92,8896.00
564.91,9210.00
568.90,9551.00
572.89,10009.00
576.87,10481.00
580.85,11018.00
584.83,11476.00
588.81,11793.00
592.79,11989.00
596.76,11912.00
600.73,11694.00
604.70,11320.00
608.67,10998.00
612.64,10580.00
616.60,10317.00
620.56,10134.00
624.52,9984.00
628.48,9870.00
632.44,9799.00
636.39,9720.00
640.34,9618.00
644.29,9593.00
648.24,9591.00
652.19,9564.00
656.13,9608.00
660.07,9635.00
664.01,9671.00
667.95,9779.00
671.89,9824.00
675.82,9950.00
679.75,9990.00
683.68,10187.00
687.61,10270.00
691.53,10459.00
695.46,10614.00
699.38,10667.00
703.30,10900.00
707.22,10996.00
711.13,11165.00
715.05,11162.00
718.96,11273.00
722.87,11322.00
726.78,11324.00
730.68,11286.00
734.59,11330.00
738.49,11316.00
742.39,11387.00
746.28,11353.00
750.18,11398.00
754.07,11387.00
757.97,11449.00
761.85,11412.00
765.74,11490.00
769.63,11470.00
773.51,11486.00
777.39,11433.00
781.27,11475.00
785.15,11620.00
789.03,11748.00
792.90,11877.00
796.77,12050.00
800.64,12317.00
804.51,12685.00
808.37,13225.00
812.24,13836.00
816.10,14654.00
819.96,15658.00
823.81,16696.00
827.67,17693.00
831.52,18673.00
835.37,19381.00
839.22,19584.00
843.07,19440.00
846.92,18954.00
850.76,18232.00
854.60,17283.00
858.44,16400.00
862.28,15544.00
866.11,14906.00
869.94,14393.00
873.78,13843.00
877.60,13496.00
881.43,13156.00
885.26,12932.00
889.08,12679.00
892.90,12509.00
896.72,12397.00
900.54,12271.00
904.35,12226.00
908.16,12081.00
911.98,12057.00
915.78,11981.00
919.59,11915.00
923.40,11951.00
927.20,11901.00
931.00,11862.00
934.80,11947.00
938.60,11956.00
942.39,11916.00
946.18,11943.00
949.97,11917.00
953.76,11886.00
957.55,11838.00
961.33,11806.00
965.12,11757.00
968.90,11677.00
972.68,11685.00
976.45,11651.00
980.23,11721.00
984.00,11649.00
987.77,11687.00
991.54,11664.00
995.31,11649.00
999.07,11611.00
1002.83,11633.00
1006.59,11582.00
1010.35,11613.00
1014.11,11606.00
1017.86,11562.00
1021.62,11639.00
1025.37,11662.00
1029.11,11674.00
1032.86,11678.00
1036.60,11761.00
1040.35,11776.00
1044.09,11848.00
1047.83,11941.00
1051.56,11981.00
1055.30,11996.00
1059.03,12038.00
1062.76,12059.00
1066.49,12105.00
1070.21,12042.00
1073.94,12123.00
1077.66,12144.00
1081.38,12121.00
1085.10,12072.00
1088.81,12066.00
1092.53,12035.00
1096.24,12080.00
1099.95,12051.00
1103.66,12036.00
1107.36,12065.00
1111.07,12089.00
1114.77,12067.00
1118.47,12114.00
1122.17,12132.00
1125.86,12108.00
1129.56,12121.00
1133.25,12158.00
1136.94,12173.00
1140.63,12199.00
1144.31,12288.00
1148.00,12319.00
1151.68,12291.00
1155.36,12298.00
1159.04,12370.00
1162.71,12381.00
1166.38,12459.00
1170.06,12459.00
1173.73,12469.00
1177.39,12497.00
1181.06,12547.00
1184.72,12600.00
1188.38,12630.00
1192.04,12639.00
1195.70,12638.00
1199.36,12712.00
1203.01,12719.00
1206.66,12754.00
1210.31,12781.00
1213.96,12810.00
1217.60,12839.00
1221.25,12868.00
1224.89,12866.00
1228.53,12962.00
1232.17,12951.00
1235.80,13002.00
1239.43,13037.00
1243.07,13065.00
1246.69,13101.00
1250.32,13130.00
1253.95,13088.00
1257.57,13139.00
1261.19,13191.00
1264.81,13198.00
1268.43,13251.00
1272.04,13260.00
1275.66,13360.00
1279.27,13318.00
1282.88,13363.00
1286.48,13485.00
1290.09,13432.00
1293.69,13443.00
1297.29,13572.00
1300.89,13542.00
1304.49,13559.00
1308.08,13589.00
1311.68,13677.00
1315.27,13701.00
1318.86,13745.00
1322.44,13701.00
1326.03,13775.00
1329.61,13879.00
1333.19,13887.00
1336.77,13965.00
1340.35,13971.00
1343.92,14027.00
1347.49,14035.00
1351.06,14134.00
1354.63,14124.00
1358.20,14187.00
1361.76,14195.00
1365.33,14281.00
1368.89,14296.00
1372.45,14326.00
1376.00,14386.00
1379.56,14352.00
1383.11,14413.00
1386.66,14379.00
1390.21,14442.00
1393.76,14409.00
1397.30,14458.00
1400.84,14443.00
1404.38,14504.00
1407.92,14547.00
1411.46,14510.00
1414.99,14572.00
1418.52,14531.00
1422.06,14599.00
1425.58,14650.00
1429.11,14635.00
1432.63,14681.00
1436.16,14744.00
1439.68,14732.00
1443.19,14789.00
1446.71,14783.00
1450.23,14879.00
1453.74,14861.00
1457.25,14871.00
1460.76,14948.00
1464.26,14991.00
1467.77,14939.00
1471.27,15031.00
1474.77,15043.00
1478.27,15096.00
1481.76,15163.00
1485.26,15176.00
1488.75,15248.00
1492.24,15271.00
1495.73,15307.00
1499.21,15376.00
1502.70,15404.00
1506.18,15466.00
1509.66,15471.00
1513.14,15588.00
1516.61,15569.00
1520.09,15623.00
1523.56,15632.00
1527.03,15662.00
1530.50,15718.00
1533.96,15691.00
1537.43,15778.00
1540.89,15738.00
1544.35,15837.00
1547.81,15827.00
1551.26,15897.00
1554.72,15968.00
1558.17,15930.00
1561.62,15979.00
1565.06,15968.00
1568.51,16089.00
1571.95,16027.00
1575.40,16090.00
1578.84,16131.00
1582.27,16152.00
1585.71,16110.00
1589.14,16150.00
1592.57,16227.00
1596.00,16207.00
1599.43,16242.00
1602.86,16233.00
1606.28,16308.00
1609.70,16329.00
1613.12,16389.00
1616.54,16429.00
1619.95,16469.00
1623.37,16462.00
1626.78,16477.00
1630.19,16535.00
1633.60,16524.00
1637.00,16588.00
1640.41,16626.00
1643.81,16646.00
1647.21,16714.00
1650.60,16736.00
1654.00,16759.00
1657.39,16877.00
1660.78,16784.00
1664.17,16835.00
1667.56,16901.00
1670.95,16835.00
1674.33,16969.00
1677.71,16898.00
1681.09,16932.00
1684.47,16955.00
1687.84,16946.00
1691.22,16989.00
1694.59,17054.00
1697.96,17010.00
1701.32,17020.00
1704.69,17056.00
1708.05,17086.00
1711.41,17077.00
1714.77,17086.00
1718.13,17116.00
1721.49,17129.00
1724.84,17157.00
1728.19,17151.00
1731.54,17247.00
1734.89,17276.00
1738.23,17295.00
1741.57,17337.00
1744.92,17358.00
1748.26,17452.00
1751.59,17487.00
1754.93,17499.00
1758.26,17491.00
1761.59,17555.00
1764.92,17533.00
1768.25,17585.00
1771.57,17608.00
1774.90,17677.00
1778.22,17690.00
1781.54,17772.00
1784.85,17796.00
1788.17,17821.00
1791.48,17860.00
1794.79,17910.00
1798.10,17929.00
1801.41,17921.00
1804.71,17991.00
1808.02,17971.00
1811.32,18047.00
1814.62,18048.00
1817.91,18027.00
1821.21,18031.00
1824.50,18092.00
1827.79,18075.00
1831.08,18141.00
1834.37,18145.00
1837.65,18168.00
1840.94,18217.00
1844.22,18180.00
1847.50,18183.00
1850.77,18193.00
1854.05,18296.00
1857.32,18329.00
1860.59,18339.00
1863.86,18375.00
1867.13,18428.00
1870.39,18458.00
1873.66,18439.00
1876.92,18480.00
1880.18,18487.00
1883.43,18544.00
1886.69,18561.00
1889.94,18652.00
1893.19,18722.00
1896.44,18740.00
1899.69,18745.00
1902.93,18814.00
1906.18,18850.00
1909.42,18840.00
1912.66,18812.00
1915.89,18870.00
1919.13,18916.00
1922.36,18918.00
1925.59,18922.00
1928.82,18950.00
1932.05,18918.00
1935.27,19038.00
1938.50,18961.00
1941.72,18964.00
1944.94,18962.00
1948.15,19034.00
1951.37,18954.00
1954.58,18937.00
1957.79,19003.00
1961.00,19000.00
1964.21,19036.00
1967.41,18961.00
1970.62,19036.00
1973.82,19028.00
1977.02,19092.00
1980.21,19062.00
1983.41,19130.00
1986.60,19127.00
1989.79,19161.00
1992.98,19176.00
1996.17,19265.00
1999.35,19256.00
2002.54,19287.00
2005.72,19315.00
2008.90,19349.00
2012.07,19290.00
2015.25,19341.00
2018.42,19347.00
2021.59,19390.00
2024.76,19447.00
2027.93,19419.00
2031.09,19476.00
2034.26,19512.00
2037.42,19503.00
2040.58,19530.00
2043.74,19485.00
2046.89,19542.00
2050.04,19506.00
2053.19,19531.00
2056.34,19552.00
2059.49,19514.00
2062.64,19550.00
2065.78,19565.00
2068.92,19590.00
2072.06,19512.00
2075.20,19491.00
2078.33,19545.00
2081.47,19491.00
2084.60,19575.00
2087.73,19542.00
2090.85,19548.00
2093.98,19518.00
2097.10,19630.00
2100.22,19562.00
2103.34,19622.00
2106.46,19674.00
2109.57,19651.00
2112.69,19674.00
2115.80,19753.00
2118.91,19702.00
2122.02,19774.00
2125.12,19814.00
2128.22,19888.00
2131.33,19837.00
2134.42,19843.00
2137.52,19924.00
2140.62,19928.00
2143.71,20023.00
2146.80,19970.00
2149.89,20059.00
2152.98,20091.00
2156.06,20112.00
2159.15,20084.00
2162.23,20178.00
2165.31,20089.00
2168.39,20139.00
2171.46,20175.00
2174.54,20204.00
2177.61,20129.00
2180.68,20186.00
2183.74,20237.00
2186.81,20257.00
2189.87,20272.00
2192.94,20195.00
2195.99,20303.00
2199.05,20178.00
2202.11,20296.00
2205.16,20235.00
2208.21,20268.00
2211.26,20353.00
2214.31,20296.00
2217.36,20343.00
2220.40,20420.00
2223.44,20439.00
2226.48,20433.00
2229.52,20518.00
2232.56,20575.00
2235.59,20619.00
2238.62,20622.00
2241.65,20627.00
2244.68,20646.00
2247.71,20700.00
2250.73,20683.00
2253.75,20717.00
2256.77,20737.00
2259.79,20776.00
2262.81,20865.00
2265.82,20894.00
2268.83,21018.00
2271.84,21122.00
2274.85,21323.00
2277.86,21437.00
2280.86,21484.00
2283.86,21874.00
2286.86,22257.00
2289.86,22904.00
2292.86,23735.00
2295.85,25057.00
2298.84,26743.00
2301.83,27799.00
2304.82,27687.00
2307.81,26318.00
2310.79,24302.00
2313.77,22764.00
2316.76,22085.00
2319.73,21807.00
2322.71,21845.00
2325.68,22128.00
2328.66,22663.00
2331.63,23533.00
2334.60,24354.00
2337.56,24919.00
2340.53,24935.00
2343.49,24575.00
2346.45,23907.00
2349.41,23097.00
2352.37,22324.00
2355.32,21944.00
2358.27,21748.00
2361.22,21670.00
2364.17,21536.00
2367.12,21524.00
2370.06,21608.00
2373.01,21660.00
2375.95,21821.00
2378.89,22445.00
2381.82,23666.00
2384.76,25910.00
2387.69,27349.00
2390.62,26681.00
2393.55,24950.00
2396.48,23144.00
2399.40,22280.00
2402.33,21855.00
2405.25,21851.00
2408.17,21863.00
2411.09,21971.00
2414.00,22024.00
2416.91,22088.00
2419.82,22188.00
2422.73,22394.00
2425.64,22643.00
2428.55,22647.00
2431.45,22582.00
2434.35,22354.00
2437.25,22189.00
2440.15,22145.00
2443.04,22066.00
2445.94,22136.00
2448.83,22189.00
2451.72,22095.00
2454.61,22052.00
2457.49,22165.00
2460.38,22252.00
2463.26,22346.00
2466.14,22409.00
2469.02,22580.00
2471.89,22827.00
2474.77,23026.00
2477.64,23309.00
2480.51,23343.00
2483.38,23315.00
2486.24,23298.00
2489.11,23381.00
2491.97,23531.00
2494.83,23653.00
2497.69,23767.00
2500.54,23685.00
2503.40,23797.00
2506.25,23878.00
2509.10,23833.00
2511.95,23702.00
2514.79,23653.00
2517.64,23535.00
2520.48,23339.00
2523.32,23299.00
2526.16,23321.00
2529.00,23414.00
2531.83,23290.00
2534.66,22956.00
2537.50,23000.00
2540.32,23328.00
2543.15,23713.00
2545.98,23873.00
2548.80,23895.00
2551.62,23850.00
2554.44,23734.00
2557.26,23599.00
2560.07,23542.00
2562.88,23316.00
2565.69,23104.00
2568.50,22856.00
2571.31,22626.00
2574.12,22631.00
2576.92,22996.00
2579.72,24082.00
2582.52,25610.00
2585.32,25831.00
2588.11,24716.00
2590.91,23491.00
2593.70,22897.00
2596.49,22994.00
2599.27,23572.00
2602.06,25055.00
2604.84,28488.00
2607.63,32877.00
2610.41,33405.00
2613.18,29828.00
2615.96,26094.00
2618.73,23726.00
2621.51,22686.00
2624.28,22200.00
2627.04,22005.00
2629.81,22098.00
2632.57,22358.00
2635.34,23012.00
2638.10,24203.00
2640.85,25427.00
2643.61,25724.00
2646.36,24562.00
2649.12,22950.00
2651.87,22151.00
2654.62,21845.00
2657.36,21801.00
2660.11,22045.00
2662.85,22671.00
2665.59,23506.00
2668.33,23958.00
2671.07,24203.00
2673.80,24606.00
2676.53,24693.00
2679.26,24372.00
2681.99,23693.00
2684.72,23210.00
2687.45,22662.00
2690.17,22128.00
2692.89,21625.00
2695.61,21450.00
2698.33,21236.00
2701.04,21029.00
2703.76,20947.00
2706.47,20942.00
2709.18,20982.00
2711.88,20949.00
2714.59,20848.00
2717.29,20833.00
2719.99,20662.00
2722.69,20569.00
2725.39,20420.00
2728.09,20412.00
2730.78,20409.00
2733.47,20325.00
2736.16,20294.00
2738.85,20301.00
2741.54,20288.00
2744.22,20317.00
2746.90,20416.00
2749.58,20434.00
2752.26,20457.00
2754.94,20445.00
2757.61,20464.00
2760.29,20344.00
2762.96,20235.00
2765.63,20226.00
2768.29,20080.00
2770.96,20086.00
2773.62,20023.00
2776.28,19930.00
2778.94,19860.00
2781.60,19934.00
2784.25,20028.00
2786.90,20209.00
2789.56,20480.00
2792.20,20769.00
2794.85,21042.00
2797.50,21213.00
2800.14,21325.00
2802.78,21117.00
2805.42,20600.00
2808.06,20118.00
2810.69,19762.00
2813.33,19668.00
2815.96,19510.00
2818.59,19468.00
2821.22,19438.00
2823.84,19541.00
2826.47,19674.00
2829.09,19888.00
2831.71,20313.00
2834.33,20490.00
2836.94,20203.00
2839.56,19689.00
2842.17,19342.00
2844.78,19156.00
2847.39,19004.00
2849.99,18962.00
2852.60,18814.00
2855.20,18811.00
2857.80,18730.00
2860.40,18770.00
2863.00,18793.00
2865.59,18766.00
2868.19,18644.00
2870.78,18567.00
2873.37,18434.00
2875.95,18400.00
2878.54,18359.00
2881.12,18193.00
2883.70,18220.00
2886.28,18212.00
2888.86,18237.00
2891.44,18275.00
2894.01,18565.00
2896.58,18854.00
2899.15,19172.00
2901.72,18784.00
2904.28,18320.00
2906.85,18048.00
2909.41,17897.00
2911.97,17843.00
2914.53,17808.00
2917.08,17777.00
2919.64,17750.00
2922.19,17674.00
2924.74,17622.00
2927.29,17564.00
2929.84,17500.00
2932.38,17529.00
2934.92,17490.00
2937.46,17513.00
2940.00,17444.00
2942.54,17409.00
2945.07,17394.00
2947.61,17382.00
2950.14,17217.00
2952.67,17166.00
2955.19,17173.00
2957.72,17090.00
2960.24,17059.00
2962.76,16969.00
2965.28,16903.00
2967.80,16830.00
2970.32,16793.00
2972.83,16701.00
2975.34,16812.00
2977.85,16832.00
2980.36,17378.00
2982.87,17716.00
2985.37,17118.00
2987.87,16548.00
2990.37,16405.00
2992.87,16272.00
2995.37,16190.00
2997.86,16153.00
3000.35,16076.00
3002.84,16167.00
3005.33,16268.00
3007.82,16313.00
3010.30,16300.00
3012.79,16241.00
3015.27,16648.00
3017.75,17282.00
3020.22,18551.00
3022.70,18398.00
3025.17,17141.00
3027.64,16138.00
3030.11,15759.00
3032.58,15594.00
3035.05,15491.00
3037.51,15421.00
3039.97,15364.00
3042.43,15277.00
3044.89,15285.00
3047.34,15388.00
3049.80,15390.00
3052.25,15153.00
3054.70,15104.00
3057.15,15031.00
3059.60,15011.00
3062.04,14988.00
3064.48,14928.00
3066.92,14924.00
3069.36,14884.00
3071.80,14852.00
3074.23,14966.00
3076.67,15089.00
3079.10,15823.00
3081.53,16517.00
3083.95,16173.00
3086.38,15100.00
3088.80,14629.00
3091.22,14459.00
3093.64,14305.00
3096.06,14341.00
3098.48,14371.00
3100.89,14314.00
3103.30,14377.00
3105.71,14259.00
3108.12,14180.00
3110.52,14155.00
3112.93,14166.00
3115.33,14292.00
3117.73,14397.00
3120.13,14585.00
3122.53,14867.00
3124.92,15256.00
3127.31,15890.00
3129.70,17194.00
3132.09,19164.00
3134.48,21409.00
3136.86,21240.00
3139.25,18504.00
3141.63,16013.00
3144.01,14616.00
3146.38,13870.00
3148.76,13564.00
3151.13,13392.00
3153.50,13292.00
3155.87,13230.00
3158.24,13134.00
3160.61,13119.00
3162.97,13016.00
3165.33,12995.00
3167.69,12932.00
3170.05,13007.00
3172.41,13088.00
3174.76,13540.00
3177.11,14421.00
3179.47,14489.00
3181.81,13503.00
3184.16,12894.00
3186.51,12511.00
3188.85,12487.00
3191.19,12442.00
3193.53,12412.00
3195.86,12643.00
3198.20,13042.00
3200.53,13568.00
3202.86,13388.00
3205.19,12803.00
3207.52,12375.00
3209.85,12178.00
3212.17,12138.00
3214.49,12030.00
3216.81,11909.00
3219.13,11766.00
3221.45,11715.00
3223.76,11772.00
3226.07,11733.00
3228.38,11903.00
3230.69,11989.00
3233.00,12032.00
3235.30,11763.00
3237.61,11733.00
3239.91,11768.00
3242.21,11841.00
3244.50,11891.00
3246.80,11772.00
3249.09,11519.00
3251.38,11269.00
3253.67,11076.00
3255.96,10884.00
3258.24,10886.00
3260.53,10809.00
3262.81,10660.00
3265.09,10650.00
3267.37,10680.00
3269.64,10728.00
3271.92,10768.00
3274.19,10787.00
3276.46,10768.00
3278.73,10683.00
3281.00,10561.00
3283.26,10445.00
3285.52,10406.00
3287.78,10337.00
3290.04,10305.00
3292.30,10153.00
3294.55,10121.00
3296.81,10045.00
3299.06,9982.00
3301.31,9940.00
3303.56,9960.00
3305.80,9915.00
3308.04,9967.00
3310.29,9925.00
3312.53,9961.00
3314.76,10032.00
3317.00,10176.00
3319.23,10194.00
3321.47,10266.00
3323.70,10185.00
3325.93,10143.00
3328.15,9953.00
3330.38,9811.00
3332.60,9640.00
3334.82,9656.00
3337.04,9585.00
3339.26,9560.00
3341.47,9559.00
3343.68,9521.00
3345.90,9406.00
3348.11,9360.00
3350.31,9276.00
3352.52,9255.00
3354.72,9249.00
3356.92,9285.00
3359.12,9167.00
3361.32,9031.00
3363.52,8896.00
3365.71,8718.00
3367.91,8583.00
3370.10,8450.00
3372.28,8273.00
3374.47,8158.00
3376.66,7955.00
3378.84,7846.00
