ENLIGHTEN Version,1.6.8
Measurement ID,20190528-094549-235005-WP-00204
Serial Number,WP-00204
Label,Linseed Oil
Integration Time,50
Timestamp,2019-05-28 09:45:49.235005
Note,
Temperature,-99
CCD C0,640.9744873046875
CCD C1,0.11524999886751175
CCD C2,-5.4810998335597105e-06
CCD C3,-6.335299840287689e-09
CCD Offset,0
CCD Gain,1.9
Laser Wavelength,633.0
Laser Enable,False
Laser Power,100.0
Laser Temperature,-99
Pixel Count,1024

Wavenumber,Processed
196.54,8501.00
199.35,8754.00
202.15,8808.00
204.95,8897.00
207.75,9019.00
210.55,9068.00
213.35,9216.00
216.15,9361.00
218.94,9421.00
221.74,9529.00
224.53,9671.00
227.32,9767.00
230.11,9833.00
232.90,10014.00
235.69,10193.00
238.48,10286.00
241.26,10421.00
244.05,10577.00
246.83,10655.00
249.61,10776.00
252.39,10946.00
255.17,10915.00
257.95,11095.00
260.72,11274.00
263.50,11426.00
266.27,11631.00
269.05,11707.00
271.82,11835.00
274.59,11970.00
277.36,12063.00
280.12,12251.00
282.89,12312.00
285.66,12358.00
288.42,12546.00
291.18,12667.00
293.94,12728.00
296.70,12949.00
299.46,13071.00
302.22,13265.00
304.97,13396.00
307.73,13575.00
310.48,13690.00
313.23,13653.00
315.99,13733.00
318.73,13951.00
321.48,14111.00
324.23,14340.00
326.98,14481.00
329.72,14745.00
332.46,14895.00
335.21,15078.00
337.95,15201.00
340.69,15397.00
343.42,15540.00
346.16,15763.00
348.90,15869.00
351.63,16102.00
354.36,16250.00
357.10,16503.00
359.83,16629.00
362.55,16800.00
365.28,17047.00
368.01,17195.00
370.73,17296.00
373.46,17349.00
376.18,17502.00
378.90,17513.00
381.62,17854.00
384.34,17899.00
387.06,18007.00
389.78,18245.00
392.49,18310.00
395.20,18447.00
397.92,18563.00
400.63,18622.00
403.34,18834.00
406.05,18898.00
408.75,19033.00
411.46,19068.00
414.16,19185.00
416.87,19297.00
419.57,19406.00
422.27,19477.00
424.97,19851.00
427.67,19851.00
430.37,20071.00
433.06,20245.00
435.76,20381.00
438.45,20473.00
441.14,20568.00
443.83,20760.00
446.52,20811.00
449.21,20998.00
451.90,21244.00
454.58,21402.00
457.27,21717.00
459.95,21896.00
462.63,22048.00
465.31,22250.00
467.99,22307.00
470.67,22419.00
473.35,22524.00
476.02,22777.00
478.70,22830.00
481.37,23157.00
484.04,23304.00
486.71,23616.00
489.38,23640.00
492.05,23929.00
494.71,24167.00
497.38,24243.00
500.04,24533.00
502.70,24558.00
505.37,24556.00
508.03,24736.00
510.68,24926.00
513.34,25038.00
516.00,25313.00
518.65,25385.00
521.31,25592.00
523.96,25727.00
526.61,25897.00
529.26,26145.00
531.91,26279.00
534.55,26406.00
537.20,26506.00
539.84,26484.00
542.49,26579.00
545.13,26707.00
547.77,26868.00
550.41,27247.00
553.05,27379.00
555.68,27688.00
558.32,27740.00
560.95,27894.00
563.59,28023.00
566.22,28128.00
568.85,27991.00
571.48,28275.00
574.11,28410.00
576.73,28658.00
579.36,28775.00
581.98,29001.00
584.61,29212.00
587.23,29467.00
589.85,29527.00
592.47,29619.00
595.08,29739.00
597.70,29785.00
600.31,30005.00
602.93,30239.00
605.54,30272.00
608.15,30347.00
610.76,30450.00
613.37,30753.00
615.98,30923.00
618.58,31052.00
621.19,31113.00
623.79,31275.00
626.39,31257.00
629.00,31406.00
631.59,31558.00
634.19,31807.00
636.79,31601.00
639.39,31959.00
641.98,31830.00
644.57,32220.00
647.17,32182.00
649.76,32369.00
652.35,32425.00
654.93,32484.00
657.52,32441.00
660.11,32545.00
662.69,32572.00
665.27,32711.00
667.85,32699.00
670.43,32753.00
673.01,32899.00
675.59,32838.00
678.17,32920.00
680.74,32993.00
683.32,33010.00
685.89,32806.00
688.46,32780.00
691.03,32907.00
693.60,32808.00
696.17,32695.00
698.73,32726.00
701.30,32696.00
703.86,32641.00
706.43,32733.00
708.99,32656.00
711.55,32566.00
714.10,32450.00
716.66,32328.00
719.22,32197.00
721.77,32226.00
724.33,32066.00
726.88,31941.00
729.43,31830.00
731.98,31803.00
734.53,31746.00
737.07,31667.00
739.62,31423.00
742.16,31347.00
744.71,31213.00
747.25,31172.00
749.79,30978.00
752.33,30788.00
754.87,30597.00
757.40,30475.00
759.94,30355.00
762.47,30154.00
765.01,30099.00
767.54,29956.00
770.07,29930.00
772.60,29838.00
775.12,29653.00
777.65,29545.00
780.18,29289.00
782.70,29148.00
785.22,29041.00
787.74,28941.00
790.26,28691.00
792.78,28567.00
795.30,28489.00
797.82,28275.00
800.33,28320.00
802.84,28075.00
805.36,28066.00
807.87,27877.00
810.38,27720.00
812.89,27492.00
815.39,27327.00
817.90,27080.00
820.40,27047.00
822.91,26882.00
825.41,26718.00
827.91,26627.00
830.41,26673.00
832.91,26376.00
835.40,26351.00
837.90,26045.00
840.39,25842.00
842.89,25636.00
845.38,25398.00
847.87,25349.00
850.36,25166.00
852.85,25054.00
855.33,24890.00
857.82,24795.00
860.30,24831.00
862.79,24712.00
865.27,24481.00
867.75,24194.00
870.23,23867.00
872.70,23748.00
875.18,23620.00
877.66,23530.00
880.13,23391.00
882.60,23298.00
885.07,23304.00
887.54,23191.00
890.01,23085.00
892.48,22894.00
894.95,22702.00
897.41,22551.00
899.87,22370.00
902.34,22291.00
904.80,22037.00
907.26,21951.00
909.72,21811.00
912.17,21858.00
914.63,21837.00
917.08,21706.00
919.54,21607.00
921.99,21443.00
924.44,21399.00
926.89,21169.00
929.34,20973.00
931.78,20796.00
934.23,20736.00
936.67,20578.00
939.12,20587.00
941.56,20524.00
944.00,20437.00
946.44,20422.00
948.88,20262.00
951.31,20130.00
953.75,20163.00
956.18,20006.00
958.61,19840.00
961.05,19722.00
963.48,19735.00
965.91,19811.00
968.33,19667.00
970.76,19518.00
973.18,19448.00
975.61,19433.00
978.03,19353.00
980.45,19300.00
982.87,19236.00
985.29,18993.00
987.71,19107.00
990.12,18932.00
992.54,18875.00
994.95,18899.00
997.36,18761.00
999.78,18822.00
1002.19,18715.00
1004.59,18715.00
1007.00,18656.00
1009.41,18674.00
1011.81,18584.00
1014.21,18434.00
1016.62,18350.00
1019.02,18308.00
1021.42,18259.00
1023.82,18198.00
1026.21,18120.00
1028.61,18086.00
1031.00,18084.00
1033.39,17991.00
1035.79,17918.00
1038.18,17868.00
1040.57,17782.00
1042.95,17702.00
1045.34,17621.00
1047.73,17640.00
1050.11,17406.00
1052.49,17441.00
1054.87,17389.00
1057.25,17388.00
1059.63,17239.00
1062.01,17195.00
1064.39,17178.00
1066.76,16988.00
1069.14,16953.00
1071.51,16904.00
1073.88,16763.00
1076.25,16788.00
1078.62,16659.00
1080.99,16541.00
1083.35,16562.00
1085.72,16486.00
1088.08,16410.00
1090.44,16429.00
1092.80,16280.00
1095.16,16303.00
1097.52,16177.00
1099.88,16044.00
1102.24,16035.00
1104.59,16031.00
1106.94,15912.00
1109.30,15738.00
1111.65,15712.00
1114.00,15789.00
1116.34,15704.00
1118.69,15730.00
1121.04,15687.00
1123.38,15540.00
1125.72,15522.00
1128.07,15466.00
1130.41,15357.00
1132.75,15388.00
1135.08,15196.00
1137.42,15217.00
1139.76,15217.00
1142.09,15109.00
1144.42,15137.00
1146.76,15209.00
1149.09,15219.00
1151.41,15087.00
1153.74,15114.00
1156.07,15046.00
1158.39,14885.00
1160.72,14827.00
1163.04,14825.00
1165.36,14758.00
1167.68,14772.00
1170.00,14644.00
1172.32,14644.00
1174.63,14644.00
1176.95,14629.00
1179.26,14617.00
1181.58,14595.00
1183.89,14579.00
1186.20,14507.00
1188.51,14361.00
1190.81,14372.00
1193.12,14357.00
1195.42,14378.00
1197.73,14342.00
1200.03,14334.00
1202.33,14199.00
1204.63,14366.00
1206.93,14205.00
1209.23,14032.00
1211.52,14060.00
1213.82,14013.00
1216.11,13967.00
1218.40,13868.00
1220.69,13973.00
1222.98,13844.00
1225.27,13777.00
1227.56,13803.00
1229.84,13826.00
1232.13,13767.00
1234.41,13766.00
1236.69,13749.00
1238.97,13670.00
1241.25,13490.00
1243.53,13468.00
1245.80,13484.00
1248.08,13520.00
1250.35,13577.00
1252.63,13446.00
1254.90,13653.00
1257.17,13537.00
1259.44,13468.00
1261.71,13451.00
1263.97,13487.00
1266.24,13339.00
1268.50,13246.00
1270.76,13253.00
1273.03,13299.00
1275.29,13277.00
1277.54,13348.00
1279.80,13410.00
1282.06,13373.00
1284.31,13375.00
1286.57,13390.00
1288.82,13281.00
1291.07,13239.00
1293.32,13202.00
1295.57,13143.00
1297.82,13232.00
1300.06,13190.00
1302.31,13223.00
1304.55,13318.00
1306.79,13269.00
1309.03,13240.00
1311.27,13288.00
1313.51,13203.00
1315.75,13134.00
1317.98,13151.00
1320.22,13036.00
1322.45,13098.00
1324.68,13101.00
1326.91,13178.00
1329.14,13107.00
1331.37,13222.00
1333.60,13193.00
1335.82,13118.00
1338.05,13058.00
1340.27,13128.00
1342.49,13050.00
1344.71,13012.00
1346.93,13050.00
1349.15,13065.00
1351.37,13081.00
1353.58,13095.00
1355.80,13155.00
1358.01,13089.00
1360.22,13190.00
1362.43,13035.00
1364.64,12947.00
1366.85,13061.00
1369.06,13007.00
1371.26,13023.00
1373.47,12951.00
1375.67,12989.00
1377.87,12919.00
1380.07,13007.00
1382.27,13081.00
1384.47,13082.00
1386.66,13069.00
1388.86,13056.00
1391.05,13022.00
1393.24,13029.00
1395.44,12983.00
1397.63,12987.00
1399.81,12961.00
1402.00,12867.00
1404.19,12909.00
1406.37,13020.00
1408.56,12965.00
1410.74,12993.00
1412.92,13039.00
1415.10,12960.00
1417.28,13027.00
1419.46,13036.00
1421.63,13010.00
1423.81,13037.00
1425.98,12991.00
1428.15,13003.00
1430.32,13040.00
1432.49,13107.00
1434.66,13087.00
1436.83,13067.00
1438.99,13035.00
1441.16,13071.00
1443.32,12993.00
1445.48,12999.00
1447.64,13058.00
1449.80,12991.00
1451.96,13046.00
1454.12,13160.00
1456.27,13018.00
1458.43,13111.00
1460.58,13124.00
1462.73,13087.00
1464.88,13077.00
1467.03,13046.00
1469.18,13074.00
1471.33,13101.00
1473.47,13092.00
1475.62,13197.00
1477.76,13134.00
1479.90,13146.00
1482.04,13065.00
1484.18,13106.00
1486.32,13048.00
1488.46,13161.00
1490.59,13058.00
1492.73,13071.00
1494.86,13012.00
1496.99,13123.00
1499.12,13103.00
1501.25,12991.00
1503.38,13136.00
1505.50,13075.00
1507.63,13139.00
1509.75,13102.00
1511.88,13130.00
1514.00,13113.00
1516.12,13031.00
1518.24,13071.00
1520.35,13073.00
1522.47,13134.00
1524.59,13131.00
1526.70,13099.00
1528.81,13075.00
1530.92,13193.00
1533.03,13128.00
1535.14,13066.00
1537.25,13117.00
1539.36,13113.00
1541.46,13060.00
1543.56,13071.00
1545.67,13174.00
1547.77,13061.00
1549.87,13137.00
1551.97,13095.00
1554.06,13138.00
1556.16,13038.00
1558.25,13104.00
1560.35,13124.00
1562.44,13086.00
1564.53,13074.00
1566.62,13128.00
1568.71,13173.00
1570.80,13065.00
1572.88,13141.00
1574.97,13145.00
1577.05,13199.00
1579.13,13201.00
1581.21,13117.00
1583.29,13253.00
1585.37,13166.00
1587.45,13172.00
1589.52,13168.00
1591.60,13275.00
1593.67,13201.00
1595.74,13193.00
1597.81,13216.00
1599.88,13240.00
1601.95,13147.00
1604.02,13172.00
1606.08,13164.00
1608.15,13202.00
1610.21,13056.00
1612.27,13135.00
1614.33,13229.00
1616.39,13176.00
1618.45,13223.00
1620.51,13193.00
1622.56,13170.00
1624.62,13163.00
1626.67,13081.00
1628.72,13165.00
1630.77,13164.00
1632.82,13115.00
1634.87,13107.00
1636.92,13271.00
1638.96,13231.00
1641.01,13169.00
1643.05,13206.00
1645.09,13186.00
1647.13,13176.00
1649.17,13268.00
1651.21,13290.00
1653.25,13233.00
1655.28,13159.00
1657.32,13216.00
1659.35,13286.00
1661.38,13102.00
1663.41,13195.00
1665.44,13296.00
1667.47,13291.00
1669.49,13265.00
1671.52,13212.00
1673.54,13290.00
1675.56,13182.00
1677.59,13111.00
1679.61,13149.00
1681.63,13168.00
1683.64,13080.00
1685.66,13231.00
1687.67,13180.00
1689.69,13185.00
1691.70,13211.00
1693.71,13252.00
1695.72,13201.00
1697.73,13090.00
1699.74,13083.00
1701.75,13153.00
1703.75,13170.00
1705.75,13194.00
1707.76,13142.00
1709.76,13197.00
1711.76,13280.00
1713.76,13236.00
1715.75,13185.00
1717.75,13254.00
1719.74,13117.00
1721.74,13172.00
1723.73,13166.00
1725.72,13223.00
1727.71,13157.00
1729.70,13271.00
1731.69,13122.00
1733.67,13220.00
1735.66,13167.00
1737.64,13222.00
1739.62,13185.00
1741.61,13137.00
1743.59,13112.00
1745.56,13168.00
1747.54,13060.00
1749.52,13088.00
1751.49,13098.00
1753.47,13170.00
1755.44,13103.00
1757.41,13086.00
1759.38,13082.00
1761.35,13075.00
1763.31,12997.00
1765.28,12932.00
1767.25,13045.00
1769.21,12927.00
1771.17,12923.00
1773.13,12946.00
1775.09,12886.00
1777.05,12902.00
1779.01,12924.00
1780.96,12904.00
1782.92,12862.00
1784.87,12850.00
1786.82,12786.00
1788.77,12824.00
1790.72,12934.00
1792.67,12875.00
1794.62,12728.00
1796.56,12767.00
1798.51,12835.00
1800.45,12698.00
1802.39,12761.00
1804.34,12797.00
1806.28,12700.00
1808.21,12647.00
1810.15,12637.00
1812.09,12544.00
1814.02,12551.00
1815.95,12647.00
1817.89,12593.00
1819.82,12647.00
1821.75,12641.00
1823.67,12510.00
1825.60,12487.00
1827.53,12434.00
1829.45,12443.00
1831.37,12542.00
1833.30,12409.00
1835.22,12428.00
1837.14,12487.00
1839.06,12365.00
1840.97,12481.00
1842.89,12320.00
1844.80,12333.00
1846.72,12393.00
1848.63,12301.00
1850.54,12343.00
1852.45,12246.00
1854.36,12282.00
1856.26,12198.00
1858.17,12192.00
1860.07,12154.00
1861.98,12209.00
1863.88,12173.00
1865.78,12038.00
1867.68,12095.00
1869.58,12099.00
1871.47,12054.00
1873.37,11979.00
1875.26,12016.00
1877.15,11990.00
1879.05,11988.00
1880.94,11962.00
1882.83,11920.00
1884.71,11905.00
1886.60,11889.00
1888.49,11798.00
1890.37,11762.00
1892.25,11766.00
1894.14,11747.00
1896.02,11682.00
1897.90,11624.00
1899.77,11585.00
1901.65,11703.00
1903.53,11663.00
1905.40,11445.00
1907.27,11485.00
1909.15,11481.00
1911.02,11427.00
1912.89,11420.00
1914.75,11368.00
1916.62,11352.00
1918.49,11412.00
1920.35,11328.00
1922.21,11344.00
1924.07,11387.00
1925.93,11291.00
1927.79,11201.00
1929.65,11241.00
1931.51,11064.00
1933.36,11068.00
1935.22,11074.00
1937.07,11050.00
1938.92,11023.00
1940.77,10966.00
1942.62,11068.00
1944.47,10944.00
1946.32,10917.00
1948.16,10870.00
1950.01,10868.00
1951.85,10876.00
1953.69,10768.00
1955.53,10735.00
1957.37,10712.00
1959.21,10731.00
1961.05,10735.00
1962.88,10591.00
1964.72,10716.00
1966.55,10579.00
1968.38,10619.00
1970.21,10596.00
1972.04,10537.00
1973.87,10488.00
1975.69,10431.00
1977.52,10430.00
1979.34,10465.00
1981.17,10376.00
1982.99,10366.00
1984.81,10312.00
1986.63,10307.00
1988.45,10302.00
1990.26,10288.00
1992.08,10267.00
1993.89,10109.00
1995.71,10130.00
1997.52,10100.00
1999.33,10008.00
2001.14,10004.00
2002.95,10005.00
2004.75,9977.00
2006.56,10024.00
2008.36,10030.00
2010.16,9859.00
2011.97,9944.00
2013.77,9927.00
2015.57,9938.00
2017.36,9850.00
2019.16,9744.00
2020.96,9837.00
2022.75,9690.00
2024.54,9662.00
2026.33,9624.00
2028.13,9689.00
2029.91,9626.00
2031.70,9638.00
2033.49,9567.00
2035.27,9458.00
2037.06,9535.00
2038.84,9437.00
2040.62,9392.00
2042.40,9430.00
2044.18,9400.00
2045.96,9345.00
2047.74,9367.00
2049.51,9282.00
2051.29,9274.00
2053.06,9272.00
2054.83,9283.00
2056.60,9223.00
2058.37,9135.00
2060.14,9128.00
2061.91,9080.00
2063.67,9048.00
2065.44,9076.00
2067.20,9045.00
2068.96,8987.00
2070.72,8930.00
2072.48,8967.00
2074.24,8948.00
2076.00,8816.00
2077.75,8842.00
2079.51,8757.00
2081.26,8735.00
2083.01,8775.00
2084.76,8802.00
2086.51,8728.00
2088.26,8705.00
2090.01,8618.00
2091.75,8673.00
2093.50,8669.00
2095.24,8559.00
2096.98,8621.00
2098.72,8560.00
2100.46,8566.00
2102.20,8435.00
2103.94,8499.00
2105.67,8486.00
2107.41,8397.00
2109.14,8428.00
2110.87,8376.00
2112.60,8342.00
2114.33,8368.00
2116.06,8281.00
2117.79,8292.00
2119.51,8338.00
2121.24,8137.00
2122.96,8304.00
2124.68,8248.00
2126.40,8096.00
2128.12,8113.00
2129.84,8125.00
2131.56,8110.00
2133.27,8121.00
2134.99,7990.00
2136.70,7972.00
2138.41,8016.00
2140.12,8045.00
2141.83,8030.00
2143.54,7948.00
2145.25,7908.00
2146.95,7902.00
2148.66,7910.00
2150.36,7855.00
2152.06,7809.00
2153.76,7767.00
2155.46,7895.00
2157.16,7797.00
2158.86,7719.00
2160.55,7686.00
2162.25,7727.00
2163.94,7672.00
2165.63,7596.00
2167.32,7520.00
2169.01,7589.00
2170.70,7497.00
2172.39,7587.00
2174.08,7533.00
2175.76,7521.00
2177.44,7471.00
2179.13,7454.00
2180.81,7393.00
2182.49,7408.00
2184.16,7298.00
2185.84,7396.00
2187.52,7318.00
2189.19,7294.00
2190.87,7282.00
2192.54,7259.00
2194.21,7255.00
2195.88,7168.00
2197.55,7160.00
2199.21,7156.00
2200.88,7118.00
2202.54,7075.00
2204.21,7041.00
2205.87,7006.00
2207.53,6974.00
2209.19,6939.00
2210.85,6896.00
2212.51,6881.00
2214.16,6803.00
2215.82,6850.00
2217.47,6849.00
2219.12,6848.00
2220.77,6813.00
2222.42,6734.00
2224.07,6675.00
2225.72,6664.00
2227.37,6645.00
2229.01,6579.00
2230.65,6656.00
2232.30,6563.00
2233.94,6588.00
2235.58,6523.00
2237.22,6510.00
2238.85,6559.00
2240.49,6434.00
2242.13,6348.00
2243.76,6369.00
2245.39,6350.00
2247.02,6348.00
2248.65,6335.00
2250.28,6308.00
2251.91,6238.00
2253.54,6221.00
2255.16,6122.00
2256.78,6203.00
2258.41,6284.00
2260.03,6179.00
2261.65,6151.00
2263.27,6053.00
2264.88,6034.00
2266.50,6009.00
2268.12,5964.00
2269.73,5997.00
2271.34,5987.00
2272.95,5962.00
2274.56,5932.00
2276.17,5900.00
2277.78,5869.00
2279.39,5880.00
2280.99,5855.00
2282.60,5724.00
2284.20,5757.00
2285.80,5736.00
2287.40,5716.00
2289.00,5696.00
2290.60,5708.00
2292.19,5710.00
2293.79,5707.00
2295.38,5655.00
2296.98,5606.00
2298.57,5624.00
2300.16,5524.00
2301.75,5583.00
2303.34,5577.00
2304.92,5529.00
2306.51,5460.00
2308.09,5416.00
2309.67,5422.00
2311.26,5412.00
2312.84,5473.00
2314.42,5460.00
2315.99,5359.00
2317.57,5250.00
2319.15,5306.00
2320.72,5319.00
2322.29,5239.00
2323.86,5215.00
2325.44,5221.00
2327.00,5208.00
2328.57,5197.00
2330.14,5184.00
2331.71,5177.00
2333.27,5131.00
2334.83,5108.00
2336.39,5083.00
2337.95,5085.00
2339.51,5029.00
2341.07,5037.00
2342.63,5026.00
2344.19,4976.00
2345.74,4946.00
2347.29,4946.00
2348.84,5005.00
2350.40,4887.00
2351.94,4853.00
2353.49,4838.00
2355.04,4824.00
2356.59,4796.00
2358.13,4754.00
2359.67,4783.00
2361.22,4745.00
2362.76,4739.00
2364.30,4730.00
2365.83,4647.00
2367.37,4746.00
2368.91,4676.00
2370.44,4621.00
2371.98,4649.00
2373.51,4605.00
2375.04,4579.00
2376.57,4556.00
2378.10,4520.00
2379.62,4509.00
2381.15,4535.00
2382.68,4471.00
2384.20,4521.00
2385.72,4438.00
2387.24,4383.00
2388.76,4395.00
2390.28,4471.00
2391.80,4344.00
2393.31,4364.00
2394.83,4346.00
2396.34,4345.00
2397.85,4293.00
2399.37,4296.00
