ENLIGHTEN Version,1.6.8
Measurement ID,20190528-123053-521211-WP-00193
Serial Number,WP-00193
Label,Sucrose
Integration Time,500
Timestamp,2019-05-28 12:30:53.521211
Note,
Temperature,-99
CCD C0,536.9577026367188
CCD C1,0.11947000026702881
CCD C2,-1.3838999620929826e-05
CCD C3,-3.2027001051204707e-09
CCD Offset,0
CCD Gain,1.9
Laser Wavelength,532.0
Laser Enable,False
Laser Power,100.0
Laser Temperature,-99
Pixel Count,1024

Wavenumber,Processed
173.55,51.00
177.69,55.00
181.83,40.00
185.97,48.00
190.10,40.00
194.23,29.00
198.36,49.00
202.49,63.00
206.61,55.00
210.73,49.00
214.85,34.00
218.96,46.00
223.07,38.00
227.18,78.00
231.29,59.00
235.39,51.00
239.49,81.00
243.59,88.00
247.68,56.00
251.78,106.00
255.87,88.00
259.95,99.00
264.04,135.00
268.12,147.00
272.19,167.00
276.27,236.00
280.34,324.00
284.41,324.00
288.48,468.00
292.54,612.00
296.61,783.00
300.67,1027.00
304.72,1389.00
308.78,1766.00
312.83,2252.00
316.87,2880.00
320.92,3607.00
324.96,4398.00
329.00,5235.00
333.04,6200.00
337.07,7219.00
341.10,8148.00
345.13,8979.00
349.16,9692.00
353.18,10288.00
357.20,10803.00
361.22,11220.00
365.24,11566.00
369.25,11954.00
373.26,11989.00
377.27,12124.00
381.27,12238.00
385.27,12392.00
389.27,12656.00
393.27,13024.00
397.26,13811.00
401.25,14336.00
405.24,14761.00
409.22,14772.00
413.21,14524.00
417.19,14039.00
421.16,13870.00
425.14,13794.00
429.11,13735.00
433.08,13773.00
437.05,13954.00
441.01,14176.00
444.97,14357.00
448.93,14294.00
452.89,14108.00
456.84,13971.00
460.79,13917.00
464.74,13862.00
468.68,13998.00
472.62,14110.00
476.56,14249.00
480.50,14357.00
484.44,14277.00
488.37,14563.00
492.30,14714.00
496.22,14962.00
500.15,15194.00
504.07,15472.00
507.99,15624.00
511.90,15970.00
515.81,16277.00
519.72,16784.00
523.63,17491.00
527.54,18046.00
531.44,18303.00
535.34,18461.00
539.24,18561.00
543.13,18438.00
547.02,18671.00
550.91,18529.00
554.80,18425.00
558.68,18300.00
562.56,18029.00
566.44,17515.00
570.32,17269.00
574.19,17248.00
578.06,17431.00
581.93,17608.00
585.80,17800.00
589.66,17800.00
593.52,17752.00
597.38,17749.00
601.23,17781.00
605.09,17863.00
608.94,17818.00
612.78,18042.00
616.63,18131.00
620.47,18261.00
624.31,18506.00
628.15,18748.00
631.98,19022.00
635.81,19680.00
639.64,20097.00
643.47,20214.00
647.29,20245.00
651.11,20053.00
654.93,19674.00
658.75,19416.00
662.56,19319.00
666.37,19258.00
670.18,19193.00
673.99,19472.00
677.79,19575.00
681.59,19853.00
685.39,19827.00
689.18,20144.00
692.97,20127.00
696.77,20323.00
700.55,20313.00
704.34,20344.00
708.12,20517.00
711.90,20601.00
715.68,20336.00
719.45,20367.00
723.22,20585.00
726.99,20762.00
730.76,20713.00
734.53,21141.00
738.29,21122.00
742.05,21514.00
745.80,21466.00
749.56,21343.00
753.31,21303.00
757.06,20994.00
760.80,21086.00
764.55,21111.00
768.29,21161.00
772.03,21209.00
775.77,21533.00
779.50,21412.00
783.23,21658.00
786.96,21657.00
790.69,21816.00
794.41,21945.00
798.13,21925.00
801.85,21997.00
805.57,22015.00
809.28,22140.00
812.99,22223.00
816.70,22438.00
820.40,22625.00
824.11,22813.00
827.81,22959.00
831.51,23277.00
835.20,23513.00
838.90,24152.00
842.59,25145.00
846.28,26644.00
849.96,27499.00
853.65,27559.00
857.33,26862.00
861.00,25624.00
864.68,25005.00
868.35,24753.00
872.02,24600.00
875.69,24683.00
879.36,24409.00
883.02,24380.00
886.68,24080.00
890.34,24025.00
894.00,24011.00
897.65,24178.00
901.30,24344.00
904.95,24897.00
908.59,25069.00
912.24,25640.00
915.88,25748.00
919.52,25965.00
923.15,25997.00
926.79,25765.00
930.42,25585.00
934.05,25366.00
937.67,25343.00
941.30,25483.00
944.92,25541.00
948.54,25556.00
952.15,25314.00
955.77,25080.00
959.38,24923.00
962.99,24919.00
966.59,24978.00
970.20,25071.00
973.80,25191.00
977.40,25394.00
980.99,25650.00
984.59,25653.00
988.18,26146.00
991.77,26087.00
995.35,26251.00
998.94,26428.00
1002.52,26543.00
1006.10,27087.00
1009.67,27392.00
1013.25,27932.00
1016.82,28227.00
1020.39,27879.00
1023.96,27603.00
1027.52,27597.00
1031.08,28255.00
1034.64,29142.00
1038.20,29916.00
1041.76,30023.00
1045.31,30164.00
1048.86,29587.00
1052.41,29090.00
1055.95,28588.00
1059.49,28280.00
1063.03,28162.00
1066.57,28227.00
1070.11,28261.00
1073.64,28324.00
1077.17,28482.00
1080.70,28853.00
1084.22,29009.00
1087.75,29379.00
1091.27,29333.00
1094.79,29271.00
1098.30,29036.00
1101.82,29302.00
1105.33,29195.00
1108.84,29458.00
1112.34,29920.00
1115.85,30355.00
1119.35,31115.00
1122.85,31999.00
1126.35,32511.00
1129.84,32289.00
1133.33,31594.00
1136.82,30757.00
1140.31,29671.00
1143.79,29045.00
1147.28,28533.00
1150.76,28510.00
1154.23,28864.00
1157.71,29321.00
1161.18,29875.00
1164.65,30122.00
1168.12,30226.00
1171.59,30047.00
1175.05,29699.00
1178.51,29382.00
1181.97,29159.00
1185.43,28992.00
1188.88,28838.00
1192.33,28697.00
1195.78,28912.00
1199.23,29155.00
1202.67,29402.00
1206.11,29793.00
1209.55,29914.00
1212.99,30023.00
1216.43,29899.00
1219.86,29846.00
1223.29,29852.00
1226.72,30027.00
1230.14,30323.00
1233.57,31246.00
1236.99,31740.00
1240.40,31841.00
1243.82,31699.00
1247.23,31347.00
1250.65,31058.00
1254.06,30567.00
1257.46,30495.00
1260.87,30656.00
1264.27,30480.00
1267.67,30504.00
1271.07,30344.00
1274.46,30422.00
1277.85,30462.00
1281.24,30614.00
1284.63,30398.00
1288.02,30434.00
1291.40,30093.00
1294.78,30337.00
1298.16,30308.00
1301.54,30208.00
1304.91,30308.00
1308.28,30346.00
1311.65,30411.00
1315.02,30449.00
1318.38,31014.00
1321.75,31291.00
1325.11,31592.00
1328.46,31887.00
1331.82,31805.00
1335.17,31649.00
1338.52,31615.00
1341.87,31868.00
1345.22,31980.00
1348.56,32497.00
1351.90,32562.00
1355.24,32636.00
1358.58,32537.00
1361.92,32551.00
1365.25,32827.00
1368.58,32756.00
1371.91,32777.00
1375.23,32580.00
1378.55,32480.00
1381.88,32257.00
1385.19,32048.00
1388.51,31912.00
1391.82,31636.00
1395.14,31457.00
1398.45,31412.00
1401.75,31775.00
1405.06,31600.00
1408.36,31757.00
1411.66,31788.00
1414.96,31893.00
1418.25,32151.00
1421.55,32205.00
1424.84,32562.00
1428.13,32604.00
1431.41,32737.00
1434.70,32636.00
1437.98,32743.00
1441.26,32823.00
1444.54,32532.00
1447.81,32610.00
1451.09,32720.00
1454.36,33248.00
1457.63,34413.00
1460.89,35309.00
1464.16,35560.00
1467.42,35129.00
1470.68,34290.00
1473.93,33464.00
1477.19,32595.00
1480.44,32307.00
1483.69,31784.00
1486.94,31670.00
1490.19,31452.00
1493.43,31372.00
1496.67,31229.00
1499.91,31330.00
1503.15,31413.00
1506.38,31231.00
1509.61,31241.00
1512.84,31305.00
1516.07,31279.00
1519.30,31370.00
1522.52,31274.00
1525.74,31333.00
1528.96,31200.00
1532.18,31223.00
1535.39,31304.00
1538.60,31421.00
1541.81,31549.00
1545.02,31537.00
1548.23,31666.00
1551.43,31615.00
1554.63,31591.00
1557.83,31396.00
1561.03,31226.00
1564.22,31384.00
1567.41,31347.00
1570.60,31420.00
1573.79,31385.00
1576.98,31570.00
1580.16,31588.00
1583.34,31343.00
1586.52,31334.00
1589.70,31421.00
1592.87,31157.00
1596.04,30839.00
1599.21,31042.00
1602.38,30991.00
1605.55,31046.00
1608.71,31044.00
1611.87,31113.00
1615.03,31119.00
1618.19,30974.00
1621.34,30877.00
1624.50,31060.00
1627.65,30921.00
1630.79,30881.00
1633.94,30949.00
1637.08,30981.00
1640.22,31126.00
1643.36,31244.00
1646.50,31307.00
1649.64,31132.00
1652.77,31265.00
1655.90,31192.00
1659.03,31025.00
1662.15,31143.00
1665.28,31082.00
1668.40,31120.00
1671.52,31290.00
1674.64,31461.00
1677.75,31489.00
1680.86,31543.00
1683.97,31533.00
1687.08,31607.00
1690.19,31383.00
1693.29,31493.00
1696.40,31265.00
1699.50,31329.00
1702.59,31495.00
1705.69,31242.00
1708.78,31284.00
1711.87,31275.00
1714.96,31503.00
1718.05,31430.00
1721.13,31174.00
1724.22,31381.00
1727.30,31448.00
1730.38,31357.00
1733.45,31309.00
1736.53,31246.00
1739.60,31387.00
1742.67,31350.00
1745.73,31569.00
1748.80,31508.00
1751.86,31590.00
1754.92,31607.00
1757.98,31607.00
1761.04,31683.00
1764.09,31682.00
1767.15,31405.00
1770.20,31410.00
1773.25,31560.00
1776.29,31627.00
1779.34,31754.00
1782.38,31655.00
1785.42,31637.00
1788.45,31607.00
1791.49,31505.00
1794.52,31490.00
1797.55,31448.00
1800.58,31579.00
1803.61,31493.00
1806.63,31395.00
1809.66,31632.00
1812.68,31603.00
1815.70,31528.00
1818.71,31643.00
1821.73,31634.00
1824.74,31368.00
1827.75,31431.00
1830.75,31324.00
1833.76,31292.00
1836.76,31263.00
1839.77,31172.00
1842.76,31223.00
1845.76,31260.00
1848.76,31293.00
1851.75,31138.00
1854.74,30985.00
1857.73,31060.00
1860.72,31024.00
1863.70,30839.00
1866.68,30850.00
1869.66,30742.00
1872.64,30653.00
1875.62,30816.00
1878.59,30723.00
1881.56,30738.00
1884.53,30730.00
1887.50,30740.00
1890.46,30875.00
1893.43,30707.00
1896.39,30565.00
1899.35,30647.00
1902.31,30557.00
1905.26,30557.00
1908.21,30542.00
1911.16,30644.00
1914.11,30753.00
1917.06,30725.00
1920.00,30738.00
1922.95,30797.00
1925.89,30629.00
1928.82,30799.00
1931.76,30749.00
1934.70,30555.00
1937.63,30359.00
1940.56,30552.00
1943.48,30694.00
1946.41,30681.00
1949.33,30836.00
1952.26,30810.00
1955.18,30909.00
1958.09,30862.00
1961.01,30909.00
1963.92,30826.00
1966.83,30652.00
1969.74,30493.00
1972.65,30662.00
1975.55,30801.00
1978.46,30814.00
1981.36,30791.00
1984.26,30858.00
1987.15,30795.00
1990.05,30561.00
1992.94,30513.00
1995.83,30512.00
1998.72,30312.00
2001.61,30213.00
2004.49,30165.00
2007.37,30402.00
2010.25,30447.00
2013.13,30439.00
2016.01,30418.00
2018.88,30588.00
2021.75,30487.00
2024.63,30628.00
2027.49,30234.00
2030.36,30222.00
2033.22,30259.00
2036.08,30008.00
2038.94,30152.00
2041.80,30149.00
2044.66,30194.00
2047.51,30304.00
2050.36,30405.00
2053.21,30340.00
2056.06,30323.00
2058.91,30154.00
2061.75,30084.00
2064.59,29996.00
2067.43,29984.00
2070.27,29964.00
2073.10,29863.00
2075.94,30118.00
2078.77,30167.00
2081.60,30310.00
2084.43,30119.00
2087.25,29962.00
2090.07,29887.00
2092.89,29772.00
2095.71,29637.00
2098.53,29667.00
2101.35,29614.00
2104.16,29696.00
2106.97,29774.00
2109.78,29785.00
2112.59,29724.00
2115.39,29799.00
2118.19,29688.00
2121.00,29549.00
2123.79,29406.00
2126.59,29433.00
2129.39,29254.00
2132.18,29194.00
2134.97,29024.00
2137.76,29315.00
2140.55,29321.00
2143.33,29344.00
2146.11,29290.00
2148.90,29138.00
2151.67,29216.00
2154.45,28860.00
2157.23,28767.00
2160.00,28835.00
2162.77,28864.00
2165.54,28786.00
2168.31,28807.00
2171.07,28740.00
2173.83,28800.00
2176.59,28866.00
2179.35,28855.00
2182.11,29062.00
2184.87,28821.00
2187.62,28883.00
2190.37,29051.00
2193.12,28722.00
2195.87,28693.00
2198.61,28909.00
2201.35,28822.00
2204.09,28908.00
2206.83,28896.00
2209.57,28750.00
2212.31,28894.00
2215.04,28834.00
2217.77,28805.00
2220.50,28786.00
2223.23,28514.00
2225.95,28599.00
2228.68,28632.00
2231.40,28708.00
2234.12,28729.00
2236.83,28604.00
2239.55,28685.00
2242.26,28773.00
2244.97,28771.00
2247.68,28564.00
2250.39,28503.00
2253.10,28672.00
2255.80,28570.00
2258.50,28402.00
2261.20,28466.00
2263.90,28389.00
2266.59,28404.00
2269.29,28357.00
2271.98,28518.00
2274.67,28419.00
2277.36,28425.00
2280.04,28252.00
2282.73,27968.00
2285.41,28019.00
2288.09,27928.00
2290.77,27999.00
2293.44,28128.00
2296.12,27999.00
2298.79,28010.00
2301.46,27981.00
2304.13,27957.00
2306.80,27926.00
2309.46,27911.00
2312.12,27649.00
2314.78,27759.00
2317.44,27705.00
2320.10,27827.00
2322.75,27687.00
2325.41,27799.00
2328.06,27676.00
2330.71,27591.00
2333.35,27698.00
2336.00,27735.00
2338.64,27612.00
2341.28,27601.00
2343.92,27481.00
2346.56,27400.00
2349.19,27546.00
2351.83,27356.00
2354.46,27267.00
2357.09,27181.00
2359.72,27166.00
2362.34,27097.00
2364.97,27156.00
2367.59,27146.00
2370.21,27161.00
2372.83,27247.00
2375.44,27121.00
2378.06,27085.00
2380.67,27012.00
2383.28,26728.00
2385.89,26878.00
2388.49,26842.00
2391.10,26757.00
2393.70,26726.00
2396.30,26799.00
2398.90,26818.00
2401.50,26804.00
2404.09,26810.00
2406.68,26602.00
2409.28,26589.00
2411.87,26615.00
2414.45,26517.00
2417.04,26534.00
2419.62,26432.00
2422.20,26285.00
2424.78,26347.00
2427.36,26286.00
2429.94,26245.00
2432.51,26381.00
2435.08,26157.00
2437.65,26239.00
2440.22,26249.00
2442.79,25945.00
2445.35,26045.00
2447.92,25929.00
2450.48,25953.00
2453.03,25884.00
2455.59,25841.00
2458.15,26013.00
2460.70,25741.00
2463.25,25882.00
2465.80,25977.00
2468.35,25788.00
2470.89,25714.00
2473.44,25655.00
2475.98,25539.00
2478.52,25510.00
2481.06,25448.00
2483.59,25432.00
2486.13,25391.00
2488.66,25271.00
2491.19,25335.00
2493.72,25409.00
2496.25,25463.00
2498.77,25234.00
2501.29,25235.00
2503.82,25044.00
2506.33,25001.00
2508.85,24889.00
2511.37,24841.00
2513.88,24814.00
2516.39,24738.00
2518.90,24712.00
2521.41,24782.00
2523.92,24784.00
2526.42,24643.00
2528.92,24766.00
2531.42,24565.00
2533.92,24508.00
2536.42,24502.00
2538.91,24436.00
2541.41,24472.00
2543.90,24429.00
2546.39,24305.00
2548.88,24453.00
2551.36,24563.00
2553.84,24331.00
2556.33,24413.00
2558.81,24464.00
2561.28,24321.00
2563.76,24213.00
2566.24,24213.00
2568.71,24133.00
2571.18,24297.00
2573.65,24269.00
2576.11,24070.00
2578.58,23912.00
2581.04,23953.00
2583.50,24133.00
2585.96,24103.00
2588.42,24069.00
2590.88,24097.00
2593.33,23947.00
2595.78,23924.00
2598.23,23943.00
2600.68,23939.00
2603.13,24076.00
2605.58,23975.00
2608.02,23846.00
2610.46,23892.00
2612.90,23888.00
2615.34,23813.00
2617.77,23903.00
2620.21,23895.00
2622.64,23806.00
2625.07,23747.00
2627.50,23715.00
2629.92,23772.00
2632.35,23704.00
2634.77,23764.00
2637.19,23660.00
2639.61,23477.00
2642.03,23696.00
2644.44,23587.00
2646.86,23478.00
2649.27,23479.00
2651.68,23285.00
2654.09,23228.00
2656.49,23026.00
2658.90,23106.00
2661.30,23291.00
2663.70,23126.00
2666.10,23083.00
2668.50,23276.00
2670.89,23191.00
2673.29,23003.00
2675.68,22984.00
2678.07,22986.00
2680.46,23003.00
2682.84,22921.00
2685.23,23045.00
2687.61,22986.00
2689.99,23034.00
2692.37,22870.00
2694.75,22881.00
2697.12,22946.00
2699.50,22891.00
2701.87,22807.00
2704.24,22571.00
2706.61,22550.00
2708.97,22608.00
2711.34,22591.00
2713.70,22657.00
2716.06,22805.00
2718.42,22984.00
2720.78,22971.00
2723.13,22867.00
2725.49,23117.00
2727.84,23030.00
2730.19,22868.00
2732.54,22729.00
2734.88,22643.00
2737.23,22465.00
2739.57,22482.00
2741.91,22316.00
2744.25,22226.00
2746.59,22197.00
2748.93,22113.00
2751.26,21991.00
2753.59,22002.00
2755.92,22018.00
2758.25,21997.00
2760.58,21805.00
2762.90,21818.00
2765.23,21728.00
2767.55,21841.00
2769.87,21778.00
2772.18,21567.00
2774.50,21766.00
2776.81,21793.00
2779.13,21485.00
2781.44,21774.00
2783.75,21593.00
2786.05,21579.00
2788.36,21574.00
2790.66,21466.00
2792.96,21604.00
2795.26,21421.00
2797.56,21577.00
2799.86,21721.00
2802.15,21672.00
2804.45,21669.00
2806.74,21725.00
2809.03,21651.00
2811.32,21707.00
2813.60,21774.00
2815.89,21735.00
2818.17,21825.00
2820.45,21773.00
2822.73,21896.00
2825.00,21780.00
2827.28,21755.00
2829.55,21862.00
2831.82,21781.00
2834.09,21820.00
2836.36,21649.00
2838.63,21852.00
2840.89,21681.00
2843.16,21710.00
2845.42,21723.00
2847.68,21708.00
2849.93,21776.00
2852.19,21679.00
2854.44,21719.00
2856.70,21841.00
2858.95,21956.00
2861.20,21950.00
2863.44,22054.00
2865.69,22311.00
2867.93,22347.00
2870.17,22617.00
2872.41,22805.00
2874.65,23022.00
2876.89,23359.00
2879.12,23598.00
2881.35,24278.00
2883.59,24829.00
2885.82,25741.00
2888.04,26747.00
2890.27,27918.00
2892.49,29159.00
2894.72,30130.00
2896.94,30891.00
2899.16,31318.00
2901.37,31321.00
2903.59,31395.00
2905.80,31948.00
2908.01,32917.00
2910.22,34636.00
2912.43,35792.00
2914.64,36377.00
2916.84,36335.00
2919.05,35437.00
2921.25,34153.00
2923.45,32915.00
2925.65,32035.00
2927.84,31515.00
2930.04,31271.00
2932.23,31520.00
2934.42,31516.00
2936.61,32399.00
2938.80,33502.00
2940.99,34701.00
2943.17,35150.00
2945.35,34579.00
2947.53,33496.00
2949.71,31571.00
2951.89,29478.00
2954.06,27665.00
2956.24,26579.00
2958.41,25972.00
2960.58,25577.00
2962.75,25309.00
2964.92,25233.00
2967.08,25241.00
2969.25,25425.00
2971.41,25376.00
2973.57,25278.00
2975.73,24967.00
2977.88,24858.00
2980.04,24987.00
2982.19,25263.00
2984.34,25531.00
2986.49,25916.00
2988.64,26441.00
2990.79,26985.00
2992.93,26950.00
2995.07,26429.00
2997.21,25850.00
2999.35,24846.00
3001.49,23578.00
3003.63,22048.00
3005.76,21073.00
3007.89,20599.00
3010.03,20713.00
3012.15,21169.00
3014.28,21517.00
3016.41,21574.00
3018.53,21388.00
3020.65,20733.00
3022.77,19623.00
3024.89,18845.00
3027.01,18042.00
3029.13,17509.00
3031.24,17258.00
3033.35,17115.00
3035.46,16878.00
3037.57,16878.00
3039.68,16914.00
3041.78,16819.00
3043.89,16586.00
3045.99,16573.00
3048.09,16427.00
3050.19,16347.00
3052.29,16227.00
3054.38,16105.00
3056.47,16122.00
3058.57,16128.00
3060.66,16126.00
3062.74,16027.00
3064.83,15948.00
3066.92,15879.00
3069.00,15882.00
3071.08,15705.00
3073.16,15636.00
3075.24,15489.00
3077.31,15345.00
3079.39,15396.00
3081.46,15314.00
3083.53,15202.00
3085.60,15396.00
3087.67,15283.00
3089.74,15180.00
3091.80,15152.00
3093.87,15154.00
3095.93,15008.00
3097.99,14838.00
3100.05,14821.00
3102.10,14647.00
3104.16,14730.00
3106.21,14684.00
3108.26,14630.00
3110.31,14633.00
3112.36,14629.00
3114.40,14759.00
3116.45,14509.00
3118.49,14414.00
3120.53,14386.00
3122.57,14306.00
3124.61,14142.00
3126.65,14129.00
3128.68,14091.00
3130.71,14094.00
3132.74,14185.00
3134.77,14138.00
3136.80,14018.00
3138.83,14140.00
3140.85,14047.00
3142.88,13876.00
3144.90,13729.00
3146.92,13693.00
3148.93,13698.00
3150.95,13579.00
3152.96,13588.00
3154.98,13639.00
3156.99,13626.00
3159.00,13511.00
3161.01,13491.00
3163.01,13430.00
3165.02,13240.00
3167.02,13297.00
3169.02,13269.00
3171.02,13151.00
3173.02,13025.00
3175.01,13044.00
3177.01,13008.00
3179.00,12991.00
3180.99,12927.00
3182.98,12924.00
3184.97,12997.00
3186.96,12869.00
3188.94,12725.00
3190.92,12687.00
3192.90,12776.00
3194.88,12660.00
3196.86,12579.00
3198.84,12589.00
3200.81,12531.00
3202.79,12603.00
