ENLIGHTEN Version,1.6.8
Measurement ID,20190528-172804-264192-WP-00204
Serial Number,WP-00204
Label,Sugar
Integration Time,2000
Timestamp,2019-05-28 17:28:04.264192
Note,
Temperature,-99
CCD C0,640.9744873046875
CCD C1,0.11524999886751175
CCD C2,-5.4810998335597105e-06
CCD C3,-6.335299840287689e-09
CCD Offset,0
CCD Gain,1.9
Laser Wavelength,633.0
Laser Enable,False
Laser Power,100.0
Laser Temperature,-99
Pixel Count,1024

Wavenumber,Processed
196.54,7783.00
199.35,7760.00
202.15,7733.00
204.95,7801.00
207.75,7857.00
210.55,7929.00
213.35,8102.00
216.15,8015.00
218.94,8257.00
221.74,8464.00
224.53,8580.00
227.32,8460.00
230.11,8500.00
232.90,8560.00
235.69,8408.00
238.48,8344.00
241.26,8390.00
244.05,8449.00
246.83,8559.00
249.61,8682.00
252.39,8649.00
255.17,8576.00
257.95,8608.00
260.72,8709.00
263.50,8629.00
266.27,8683.00
269.05,8787.00
271.82,8911.00
274.59,9023.00
277.36,9187.00
280.12,9175.00
282.89,9165.00
285.66,9194.00
288.42,9238.00
291.18,9358.00
293.94,9312.00
296.70,9466.00
299.46,9497.00
302.22,9547.00
304.97,9717.00
307.73,9716.00
310.48,9747.00
313.23,9668.00
315.99,9601.00
318.73,9555.00
321.48,9626.00
324.23,9581.00
326.98,9767.00
329.72,9850.00
332.46,9964.00
335.21,10003.00
337.95,10267.00
340.69,10220.00
343.42,10360.00
346.16,10351.00
348.90,10378.00
351.63,10474.00
354.36,10642.00
357.10,10815.00
359.83,11047.00
362.55,11142.00
365.28,11111.00
368.01,10982.00
370.73,11019.00
373.46,11038.00
376.18,10967.00
378.90,11070.00
381.62,11041.00
384.34,11165.00
387.06,11393.00
389.78,11659.00
392.49,12122.00
395.20,12971.00
397.92,13383.00
400.63,13024.00
403.34,12312.00
406.05,11905.00
408.75,11863.00
411.46,11998.00
414.16,12027.00
416.87,12004.00
419.57,11863.00
422.27,11837.00
424.97,11916.00
427.67,12042.00
430.37,12152.00
433.06,12515.00
435.76,12712.00
438.45,13052.00
441.14,12978.00
443.83,12818.00
446.52,12485.00
449.21,12600.00
451.90,12607.00
454.58,12593.00
457.27,12700.00
459.95,12757.00
462.63,12875.00
465.31,12945.00
467.99,13059.00
470.67,13280.00
473.35,13197.00
476.02,13273.00
478.70,13431.00
481.37,13491.00
484.04,13527.00
486.71,13806.00
489.38,13996.00
492.05,14066.00
494.71,14157.00
497.38,14175.00
500.04,14150.00
502.70,14165.00
505.37,14254.00
508.03,14340.00
510.68,14420.00
513.34,14581.00
516.00,15046.00
518.65,15687.00
521.31,16067.00
523.96,15890.00
526.61,15940.00
529.26,16006.00
531.91,16094.00
534.55,16237.00
537.20,16238.00
539.84,16244.00
542.49,16430.00
545.13,16624.00
547.77,16739.00
550.41,16787.00
553.05,16716.00
555.68,16543.00
558.32,16372.00
560.95,16286.00
563.59,16361.00
566.22,16336.00
568.85,16330.00
571.48,16565.00
574.11,16819.00
576.73,17066.00
579.36,17392.00
581.98,17507.00
584.61,17393.00
587.23,17528.00
589.85,17411.00
592.47,17568.00
595.08,17572.00
597.70,17813.00
600.31,17779.00
602.93,17955.00
605.54,18154.00
608.15,18211.00
610.76,18423.00
613.37,18535.00
615.98,18698.00
618.58,18934.00
621.19,19151.00
623.79,19258.00
626.39,19493.00
629.00,19788.00
631.59,20053.00
634.19,20414.00
636.79,20707.00
639.39,20861.00
641.98,20891.00
644.57,20885.00
647.17,20886.00
649.76,20837.00
652.35,21063.00
654.93,21097.00
657.52,21185.00
660.11,21287.00
662.69,21457.00
665.27,21690.00
667.85,21898.00
670.43,22158.00
673.01,22305.00
675.59,22662.00
678.17,22868.00
680.74,22912.00
683.32,23114.00
685.89,23077.00
688.46,23226.00
691.03,23555.00
693.60,23850.00
696.17,24076.00
698.73,24156.00
701.30,24284.00
703.86,24679.00
706.43,24744.00
708.99,24888.00
711.55,25269.00
714.10,25261.00
716.66,25301.00
719.22,25432.00
721.77,25560.00
724.33,26041.00
726.88,26245.00
729.43,26304.00
731.98,26606.00
734.53,26983.00
737.07,27135.00
739.62,27213.00
742.16,27344.00
744.71,27580.00
747.25,27612.00
749.79,27790.00
752.33,27884.00
754.87,27985.00
757.40,28187.00
759.94,28387.00
762.47,28476.00
765.01,28741.00
767.54,29096.00
770.07,29400.00
772.60,29530.00
775.12,29768.00
777.65,29977.00
780.18,29988.00
782.70,30283.00
785.22,30336.00
787.74,30677.00
790.26,30896.00
792.78,31121.00
795.30,31309.00
797.82,31617.00
800.33,31866.00
802.84,32062.00
805.36,32329.00
807.87,32540.00
810.38,32620.00
812.89,32852.00
815.39,33046.00
817.90,33301.00
820.40,33409.00
822.91,33669.00
825.41,33929.00
827.91,34197.00
830.41,34667.00
832.91,34778.00
835.40,35251.00
837.90,35564.00
840.39,36249.00
842.89,37312.00
845.38,38607.00
847.87,38140.00
850.36,37162.00
852.85,36651.00
855.33,36676.00
857.82,36862.00
860.30,37055.00
862.79,37326.00
865.27,37511.00
867.75,37608.00
870.23,37802.00
872.70,37797.00
875.18,37908.00
877.66,37916.00
880.13,37990.00
882.60,38184.00
885.07,38480.00
887.54,38601.00
890.01,38880.00
892.48,39057.00
894.95,39097.00
897.41,39158.00
899.87,39127.00
902.34,39438.00
904.80,39899.00
907.26,40119.00
909.72,40219.00
912.17,40788.00
914.63,40840.00
917.08,41223.00
919.54,41308.00
921.99,41069.00
924.44,40863.00
926.89,40731.00
929.34,40655.00
931.78,40792.00
934.23,40874.00
936.67,41305.00
939.12,41812.00
941.56,41771.00
944.00,41663.00
946.44,41667.00
948.88,41726.00
951.31,41818.00
953.75,41762.00
956.18,41747.00
958.61,41681.00
961.05,41772.00
963.48,41956.00
965.91,42114.00
968.33,42162.00
970.76,42255.00
973.18,42399.00
975.61,42386.00
978.03,42432.00
980.45,42534.00
982.87,42588.00
985.29,42759.00
987.71,42679.00
990.12,42698.00
992.54,42809.00
994.95,42871.00
997.36,43016.00
999.78,43058.00
1002.19,43297.00
1004.59,43495.00
1007.00,43672.00
1009.41,43815.00
1011.81,43640.00
1014.21,43425.00
1016.62,43236.00
1019.02,42875.00
1021.42,42951.00
1023.82,43113.00
1026.21,43357.00
1028.61,43613.00
1031.00,44107.00
1033.39,44669.00
1035.79,44576.00
1038.18,44115.00
1040.57,43543.00
1042.95,43208.00
1045.34,42872.00
1047.73,42774.00
1050.11,42683.00
1052.49,42503.00
1054.87,42473.00
1057.25,42187.00
1059.63,42112.00
1062.01,42186.00
1064.39,41928.00
1066.76,41758.00
1069.14,41793.00
1071.51,41645.00
1073.88,41658.00
1076.25,41326.00
1078.62,41311.00
1080.99,41148.00
1083.35,41108.00
1085.72,41111.00
1088.08,40904.00
1090.44,40613.00
1092.80,40124.00
1095.16,40077.00
1097.52,40160.00
1099.88,40000.00
1102.24,39846.00
1104.59,39584.00
1106.94,39175.00
1109.30,39319.00
1111.65,39466.00
1114.00,39573.00
1116.34,39787.00
1118.69,39934.00
1121.04,39954.00
1123.38,39748.00
1125.72,39226.00
1128.07,38557.00
1130.41,37920.00
1132.75,37505.00
1135.08,37230.00
1137.42,36925.00
1139.76,36699.00
1142.09,36416.00
1144.42,36284.00
1146.76,36332.00
1149.09,36110.00
1151.41,36035.00
1153.74,36268.00
1156.07,36342.00
1158.39,36146.00
1160.72,35726.00
1163.04,35329.00
1165.36,35069.00
1167.68,34944.00
1170.00,34851.00
1172.32,34559.00
1174.63,34267.00
1176.95,34103.00
1179.26,33837.00
1181.58,33674.00
1183.89,33457.00
1186.20,33251.00
1188.51,33006.00
1190.81,32842.00
1193.12,32626.00
1195.42,32761.00
1197.73,32583.00
1200.03,32532.00
1202.33,32380.00
1204.63,32335.00
1206.93,32134.00
1209.23,31923.00
1211.52,31522.00
1213.82,31339.00
1216.11,31056.00
1218.40,30791.00
1220.69,30721.00
1222.98,30920.00
1225.27,30875.00
1227.56,30961.00
1229.84,31040.00
1232.13,31322.00
1234.41,31195.00
1236.69,30757.00
1238.97,30300.00
1241.25,29907.00
1243.53,29570.00
1245.80,29303.00
1248.08,29049.00
1250.35,28961.00
1252.63,28978.00
1254.90,29118.00
1257.17,29058.00
1259.44,28739.00
1261.71,28549.00
1263.97,28168.00
1266.24,28261.00
1268.50,27957.00
1270.76,27898.00
1273.03,27863.00
1275.29,27830.00
1277.54,27708.00
1279.80,27672.00
1282.06,27420.00
1284.31,27201.00
1286.57,27049.00
1288.82,26966.00
1291.07,26821.00
1293.32,26645.00
1295.57,26669.00
1297.82,26534.00
1300.06,26473.00
1302.31,26458.00
1304.55,26395.00
1306.79,26235.00
1309.03,26140.00
1311.27,26203.00
1313.51,26068.00
1315.75,26096.00
1317.98,26053.00
1320.22,26172.00
1322.45,26020.00
1324.68,26022.00
1326.91,26012.00
1329.14,25710.00
1331.37,25669.00
1333.60,25638.00
1335.82,25468.00
1338.05,25682.00
1340.27,25808.00
1342.49,25887.00
1344.71,25967.00
1346.93,25660.00
1349.15,25430.00
1351.37,25182.00
1353.58,25116.00
1355.80,25052.00
1358.01,25155.00
1360.22,25265.00
1362.43,25080.00
1364.64,25098.00
1366.85,24898.00
1369.06,24730.00
1371.26,24641.00
1373.47,24609.00
1375.67,24516.00
1377.87,24499.00
1380.07,24141.00
1382.27,23984.00
1384.47,23859.00
1386.66,23871.00
1388.86,23648.00
1391.05,23553.00
1393.24,23319.00
1395.44,23445.00
1397.63,23265.00
1399.81,23370.00
1402.00,23412.00
1404.19,23213.00
1406.37,23430.00
1408.56,23288.00
1410.74,23271.00
1412.92,23353.00
1415.10,23268.00
1417.28,23280.00
1419.46,23112.00
1421.63,23031.00
1423.81,22946.00
1425.98,23115.00
1428.15,23013.00
1430.32,23039.00
1432.49,22857.00
1434.66,22801.00
1436.83,22744.00
1438.99,22701.00
1441.16,22522.00
1443.32,22440.00
1445.48,22453.00
1447.64,22522.00
1449.80,22651.00
1451.96,22944.00
1454.12,23439.00
1456.27,24031.00
1458.43,24095.00
1460.58,23593.00
1462.73,22971.00
1464.88,22467.00
1467.03,22263.00
1469.18,22171.00
1471.33,22079.00
1473.47,22019.00
1475.62,21808.00
1477.76,21557.00
1479.90,21474.00
1482.04,21449.00
1484.18,21449.00
1486.32,21319.00
1488.46,21219.00
1490.59,21173.00
1492.73,21158.00
1494.86,21071.00
1496.99,21015.00
1499.12,21002.00
1501.25,21044.00
1503.38,20901.00
1505.50,20865.00
1507.63,20890.00
1509.75,20849.00
1511.88,20802.00
1514.00,20679.00
1516.12,20744.00
1518.24,20636.00
1520.35,20652.00
1522.47,20596.00
1524.59,20511.00
1526.70,20523.00
1528.81,20487.00
1530.92,20336.00
1533.03,20450.00
1535.14,20471.00
1537.25,20310.00
1539.36,20338.00
1541.46,20235.00
1543.56,20178.00
1545.67,20313.00
1547.77,20273.00
1549.87,20192.00
1551.97,20182.00
1554.06,20199.00
1556.16,20121.00
1558.25,20047.00
1560.35,20080.00
1562.44,20022.00
1564.53,19975.00
1566.62,19973.00
1568.71,19884.00
1570.80,19982.00
1572.88,19877.00
1574.97,19884.00
1577.05,19869.00
1579.13,19808.00
1581.21,19824.00
1583.29,19680.00
1585.37,19714.00
1587.45,19663.00
1589.52,19735.00
1591.60,19691.00
1593.67,19788.00
1595.74,19736.00
1597.81,19705.00
1599.88,19674.00
1601.95,19520.00
1604.02,19551.00
1606.08,19526.00
1608.15,19341.00
1610.21,19553.00
1612.27,19355.00
1614.33,19425.00
1616.39,19526.00
1618.45,19295.00
1620.51,19335.00
1622.56,19239.00
1624.62,19265.00
1626.67,19265.00
1628.72,19240.00
1630.77,19111.00
1632.82,19159.00
1634.87,19064.00
1636.92,19135.00
1638.96,19098.00
1641.01,19311.00
1643.05,19197.00
1645.09,19095.00
1647.13,19012.00
1649.17,19082.00
1651.21,19004.00
1653.25,18989.00
1655.28,19000.00
1657.32,18904.00
1659.35,18860.00
1661.38,18951.00
1663.41,18822.00
1665.44,18906.00
1667.47,18972.00
1669.49,18940.00
1671.52,18854.00
1673.54,18774.00
1675.56,18765.00
1677.59,18790.00
1679.61,18666.00
1681.63,18736.00
1683.64,18685.00
1685.66,18666.00
1687.67,18685.00
1689.69,18682.00
1691.70,18652.00
1693.71,18696.00
1695.72,18662.00
1697.73,18596.00
1699.74,18601.00
1701.75,18584.00
1703.75,18632.00
1705.75,18523.00
1707.76,18542.00
1709.76,18472.00
1711.76,18610.00
1713.76,18575.00
1715.75,18540.00
1717.75,18554.00
1719.74,18559.00
1721.74,18462.00
1723.73,18392.00
1725.72,18369.00
1727.71,18377.00
1729.70,18437.00
1731.69,18430.00
1733.67,18478.00
1735.66,18381.00
1737.64,18360.00
1739.62,18426.00
1741.61,18301.00
1743.59,18164.00
1745.56,18194.00
1747.54,18183.00
1749.52,18210.00
1751.49,18210.00
1753.47,18181.00
1755.44,18125.00
1757.41,18196.00
1759.38,18075.00
1761.35,18187.00
1763.31,18023.00
1765.28,18060.00
1767.25,17939.00
1769.21,17987.00
1771.17,17948.00
1773.13,18002.00
1775.09,17884.00
1777.05,17925.00
1779.01,17929.00
1780.96,17888.00
1782.92,17924.00
1784.87,17804.00
1786.82,17819.00
1788.77,17844.00
1790.72,17770.00
1792.67,17770.00
1794.62,17724.00
1796.56,17606.00
1798.51,17709.00
1800.45,17698.00
1802.39,17568.00
1804.34,17633.00
1806.28,17538.00
1808.21,17526.00
1810.15,17643.00
1812.09,17614.00
1814.02,17610.00
1815.95,17414.00
1817.89,17442.00
1819.82,17557.00
1821.75,17423.00
1823.67,17468.00
1825.60,17406.00
1827.53,17363.00
1829.45,17315.00
1831.37,17434.00
1833.30,17359.00
1835.22,17323.00
1837.14,17349.00
1839.06,17389.00
1840.97,17336.00
1842.89,17292.00
1844.80,17342.00
1846.72,17224.00
1848.63,17292.00
1850.54,17380.00
1852.45,17211.00
1854.36,17260.00
1856.26,17193.00
1858.17,17133.00
1860.07,17265.00
1861.98,17172.00
1863.88,17090.00
1865.78,17201.00
1867.68,17191.00
1869.58,16973.00
1871.47,16973.00
1873.37,17026.00
1875.26,17005.00
1877.15,17092.00
1879.05,16984.00
1880.94,17060.00
1882.83,17060.00
1884.71,17026.00
1886.60,16992.00
1888.49,16957.00
1890.37,16946.00
1892.25,17004.00
1894.14,16834.00
1896.02,16895.00
1897.90,16984.00
1899.77,16889.00
1901.65,16714.00
1903.53,16762.00
1905.40,16756.00
1907.27,16806.00
1909.15,16786.00
1911.02,16754.00
1912.89,16649.00
1914.75,16589.00
1916.62,16674.00
1918.49,16642.00
1920.35,16674.00
1922.21,16621.00
1924.07,16636.00
1925.93,16585.00
1927.79,16572.00
1929.65,16450.00
1931.51,16415.00
1933.36,16415.00
1935.22,16433.00
1937.07,16406.00
1938.92,16372.00
1940.77,16345.00
1942.62,16360.00
1944.47,16360.00
1946.32,16284.00
1948.16,16194.00
1950.01,16208.00
1951.85,16183.00
1953.69,16126.00
1955.53,16189.00
1957.37,16101.00
1959.21,16107.00
1961.05,16037.00
1962.88,16195.00
1964.72,16084.00
1966.55,15953.00
1968.38,16073.00
1970.21,16061.00
1972.04,15985.00
1973.87,15978.00
1975.69,16010.00
1977.52,15873.00
1979.34,15915.00
1981.17,15873.00
1982.99,15709.00
1984.81,15730.00
1986.63,15748.00
1988.45,15767.00
1990.26,15871.00
1992.08,15693.00
1993.89,15681.00
1995.71,15729.00
1997.52,15736.00
1999.33,15601.00
2001.14,15512.00
2002.95,15639.00
2004.75,15545.00
2006.56,15464.00
2008.36,15485.00
2010.16,15502.00
2011.97,15527.00
2013.77,15333.00
2015.57,15326.00
2017.36,15280.00
2019.16,15173.00
2020.96,15305.00
2022.75,15196.00
2024.54,15172.00
2026.33,15257.00
2028.13,15230.00
2029.91,15116.00
2031.70,15217.00
2033.49,15165.00
2035.27,15213.00
2037.06,15075.00
2038.84,14887.00
2040.62,15059.00
2042.40,14889.00
2044.18,14813.00
2045.96,14835.00
2047.74,14874.00
2049.51,14773.00
2051.29,14806.00
2053.06,14770.00
2054.83,14829.00
2056.60,14585.00
2058.37,14658.00
2060.14,14599.00
2061.91,14598.00
2063.67,14600.00
2065.44,14484.00
2067.20,14468.00
2068.96,14492.00
2070.72,14430.00
2072.48,14448.00
2074.24,14427.00
2076.00,14279.00
2077.75,14283.00
2079.51,14209.00
2081.26,14201.00
2083.01,14094.00
2084.76,14125.00
2086.51,14171.00
2088.26,14161.00
2090.01,14150.00
2091.75,14153.00
2093.50,14047.00
2095.24,14092.00
2096.98,13999.00
2098.72,13866.00
2100.46,13918.00
2102.20,13915.00
2103.94,13743.00
2105.67,13823.00
2107.41,13737.00
2109.14,13705.00
2110.87,13670.00
2112.60,13632.00
2114.33,13621.00
2116.06,13560.00
2117.79,13550.00
2119.51,13583.00
2121.24,13562.00
2122.96,13459.00
2124.68,13381.00
2126.40,13436.00
2128.12,13419.00
2129.84,13428.00
2131.56,13362.00
2133.27,13259.00
2134.99,13347.00
2136.70,13257.00
2138.41,13317.00
2140.12,13222.00
2141.83,13219.00
2143.54,13109.00
2145.25,13064.00
2146.95,13044.00
2148.66,13000.00
2150.36,12968.00
2152.06,12947.00
2153.76,12885.00
2155.46,12950.00
2157.16,12837.00
2158.86,12842.00
2160.55,12750.00
2162.25,12830.00
2163.94,12761.00
2165.63,12605.00
2167.32,12578.00
2169.01,12563.00
2170.70,12536.00
2172.39,12445.00
2174.08,12572.00
2175.76,12536.00
2177.44,12512.00
2179.13,12422.00
2180.81,12371.00
2182.49,12383.00
2184.16,12270.00
2185.84,12247.00
2187.52,12087.00
2189.19,12070.00
2190.87,12143.00
2192.54,12055.00
2194.21,12031.00
2195.88,12000.00
2197.55,12055.00
2199.21,11913.00
2200.88,11951.00
2202.54,11877.00
2204.21,11806.00
2205.87,11779.00
2207.53,11770.00
2209.19,11696.00
2210.85,11584.00
2212.51,11602.00
2214.16,11610.00
2215.82,11541.00
2217.47,11505.00
2219.12,11473.00
2220.77,11427.00
2222.42,11404.00
2224.07,11339.00
2225.72,11207.00
2227.37,11229.00
2229.01,11266.00
2230.65,11209.00
2232.30,11215.00
2233.94,11130.00
2235.58,11098.00
2237.22,11085.00
2238.85,11018.00
2240.49,10908.00
2242.13,10938.00
2243.76,10845.00
2245.39,10765.00
2247.02,10746.00
2248.65,10718.00
2250.28,10695.00
2251.91,10748.00
2253.54,10621.00
2255.16,10643.00
2256.78,10702.00
2258.41,10521.00
2260.03,10564.00
2261.65,10472.00
2263.27,10482.00
2264.88,10389.00
2266.50,10457.00
2268.12,10272.00
2269.73,10291.00
2271.34,10320.00
2272.95,10248.00
2274.56,10216.00
2276.17,10158.00
2277.78,10219.00
2279.39,10113.00
2280.99,10122.00
2282.60,10094.00
2284.20,9944.00
2285.80,10022.00
2287.40,9996.00
2289.00,9968.00
2290.60,9934.00
2292.19,9915.00
2293.79,9862.00
2295.38,9843.00
2296.98,9761.00
2298.57,9795.00
2300.16,9862.00
2301.75,9634.00
2303.34,9806.00
2304.92,9704.00
2306.51,9647.00
2308.09,9523.00
2309.67,9618.00
2311.26,9424.00
2312.84,9629.00
2314.42,9525.00
2315.99,9426.00
2317.57,9426.00
2319.15,9365.00
2320.72,9464.00
2322.29,9339.00
2323.86,9305.00
2325.44,9298.00
2327.00,9266.00
2328.57,9241.00
2330.14,9231.00
2331.71,9220.00
2333.27,9141.00
2334.83,9144.00
2336.39,9085.00
2337.95,8991.00
2339.51,9017.00
2341.07,8922.00
2342.63,8964.00
2344.19,8920.00
2345.74,8914.00
2347.29,8861.00
2348.84,8912.00
2350.40,8823.00
2351.94,8848.00
2353.49,8804.00
2355.04,8762.00
2356.59,8655.00
2358.13,8622.00
2359.67,8582.00
2361.22,8595.00
2362.76,8540.00
2364.30,8554.00
2365.83,8431.00
2367.37,8521.00
2368.91,8524.00
2370.44,8467.00
2371.98,8439.00
2373.51,8313.00
2375.04,8373.00
2376.57,8368.00
2378.10,8255.00
2379.62,8315.00
2381.15,8224.00
2382.68,8232.00
2384.20,8117.00
2385.72,8138.00
2387.24,8171.00
2388.76,8173.00
2390.28,8087.00
2391.80,8030.00
2393.31,7954.00
2394.83,8030.00
2396.34,7999.00
2397.85,7918.00
2399.37,7889.00
